studywords,test,trials.thisRepN,trials.thisTrialN,trials.thisN,trials.thisIndex,trials_2.thisRepN,trials_2.thisTrialN,trials_2.thisN,trials_2.thisIndex,text.started,slider.started,slider.response,slider.rt,text_2.started,textbox.started,text_3.started,mouse.started,textbox.text,mouse.x,mouse.y,mouse.leftButton,mouse.midButton,mouse.rightButton,mouse.time,mouse.clicked_name,participant,session,date,expName,psychopyVersion,frameRate,
hello ,,0,0,0,5,,,,,15.111490900046192,15.111490900046192,1,1.6258052000193857,,,,,,,,,,,,,2,001,2023-10-04_11h10.36.137,wordfragmentation,2023.1.3,59.95365583408808,
bell ,,0,1,1,6,,,,,16.740995100000873,16.740995100000873,1,0.757801300031133,,,,,,,,,,,,,2,001,2023-10-04_11h10.36.137,wordfragmentation,2023.1.3,59.95365583408808,
vase ,,0,2,2,0,,,,,17.523160100041423,17.523160100041423,1,0.6095489999861456,,,,,,,,,,,,,2,001,2023-10-04_11h10.36.137,wordfragmentation,2023.1.3,59.95365583408808,
cushion,,0,3,3,3,,,,,18.154159700032324,18.154159700032324,1.0037037037037038,0.6451754000154324,,,,,,,,,,,,,2,001,2023-10-04_11h10.36.137,wordfragmentation,2023.1.3,59.95365583408808,
tiger ,,0,4,4,1,,,,,18.824145600025076,18.824145600025076,1.0037037037037038,0.6441647000028752,,,,,,,,,,,,,2,001,2023-10-04_11h10.36.137,wordfragmentation,2023.1.3,59.95365583408808,
nail ,,0,5,5,7,,,,,19.486636899993755,19.486636899993755,1.0037037037037038,0.6791301000048406,,,,,,,,,,,,,2,001,2023-10-04_11h10.36.137,wordfragmentation,2023.1.3,59.95365583408808,
book ,,0,6,6,2,,,,,20.18647300003795,20.18647300003795,1.0074074074074073,0.6292293999576941,,,,,,,,,,,,,2,001,2023-10-04_11h10.36.137,wordfragmentation,2023.1.3,59.95365583408808,
house ,,0,7,7,9,,,,,20.836622500035446,20.836622500035446,1.0185185185185186,0.6624582000076771,,,,,,,,,,,,,2,001,2023-10-04_11h10.36.137,wordfragmentation,2023.1.3,59.95365583408808,
plate ,,0,8,8,8,,,,,21.525149399996735,21.525149399996735,1.0296296296296297,0.642089799977839,,,,,,,,,,,,,2,001,2023-10-04_11h10.36.137,wordfragmentation,2023.1.3,59.95365583408808,
piano ,,0,9,9,4,,,,,22.187263300002087,22.187263300002087,1.0444444444444445,0.5958000000100583,,,,,,,,,,,,,2,001,2023-10-04_11h10.36.137,wordfragmentation,2023.1.3,59.95365583408808,
,p_a_t_,,,,,0,0,0,8,,,,,22.808505000022706,22.808505000022706,22.808505000022706,0.00919909996446222,plate,[-0.1259259259259259],[-0.31574074074074077],[1],[0],[0],[4.589095899951644],['text_3'],2,001,2023-10-04_11h10.36.137,wordfragmentation,2023.1.3,59.95365583408808,
,_i_n_,,,,,0,1,1,4,,,,,27.404976700025145,27.404976700025145,27.404976700025145,0.004220100003294647,finish,"[-0.11018518518518519, -0.10277777777777777]","[-0.3509259259259259, -0.30185185185185187]","[1, 1]","[0, 0]","[0, 0]","[7.545068900042679, 8.095261300040875]",['text_3'],2,001,2023-10-04_11h10.36.137,wordfragmentation,2023.1.3,59.95365583408808,
,m_a_,,,,,0,2,2,12,,,,,35.512680100044236,35.512680100044236,35.512680100044236,0.004848999960813671,mean,[-0.044444444444444446],[-0.3416666666666667],[1],[0],[0],[9.76246480003465],[],2,001,2023-10-04_11h10.36.137,wordfragmentation,2023.1.3,59.95365583408808,
,_e_l_,,,,,0,3,3,5,,,,,45.52670740004396,45.52670740004396,45.52670740004396,0.02090679999673739,,[],[],[],[],[],[],[],2,001,2023-10-04_11h10.36.137,wordfragmentation,2023.1.3,59.95365583408808,
,b_l_,,,,,0,4,4,6,,,,,55.51263589999871,55.51263589999871,55.51263589999871,0.006335999991279095,bell,"[-0.044444444444444446, -0.04259259259259259]","[-0.33611111111111114, -0.30277777777777776]","[1, 1]","[0, 0]","[0, 0]","[3.9979143000091426, 4.6490274000098]",['text_3'],2,001,2023-10-04_11h10.36.137,wordfragmentation,2023.1.3,59.95365583408808,
,_a_l,,,,,0,5,5,7,,,,,60.16630710003665,60.16630710003665,60.16630710003665,0.004250300000421703,nail,[-0.03981481481481482],[-0.30092592592592593],[1],[0],[0],[2.710612199967727],['text_3'],2,001,2023-10-04_11h10.36.137,wordfragmentation,2023.1.3,59.95365583408808,
,f_o_e_,,,,,0,6,6,19,,,,,62.881008800002746,62.881008800002746,62.881008800002746,0.0038694999529980123,flower,[-0.03888888888888889],[-0.29907407407407405],[1],[0],[0],[2.528931300039403],['text_3'],2,001,2023-10-04_11h10.36.137,wordfragmentation,2023.1.3,59.95365583408808,
,cu_h_o_,,,,,0,7,7,3,,,,,65.42197830002988,65.42197830002988,65.42197830002988,0.005168700008653104,cushion,[-0.03888888888888889],[-0.29907407407407405],[1],[0],[0],[3.676889599999413],['text_3'],2,001,2023-10-04_11h10.36.137,wordfragmentation,2023.1.3,59.95365583408808,
,m_u_e,,,,,0,8,8,14,,,,,69.10614390001865,69.10614390001865,69.10614390001865,0.005302899982780218,,[],[],[],[],[],[],[],2,001,2023-10-04_11h10.36.137,wordfragmentation,2023.1.3,59.95365583408808,
,_a_e,,,,,0,9,9,18,,,,,79.11888000002364,79.11888000002364,79.11888000002364,0.020324099983554333,bakke,[-0.03148148148148148],[-0.29907407407407405],[1],[0],[0],[2.0649122000322677],['text_3'],2,001,2023-10-04_11h10.36.137,wordfragmentation,2023.1.3,59.95365583408808,
,_as_,,,,,0,10,10,0,,,,,81.18617150001228,81.18617150001228,81.18617150001228,0.0036755999899469316,vase,"[-0.025925925925925925, 0.005555555555555556, 0.012962962962962963]","[-0.2611111111111111, -0.35462962962962963, -0.29814814814814816]","[1, 1, 1]","[0, 0, 0]","[0, 0, 0]","[6.128994499973487, 7.012515700014774, 7.613181099994108]",['text_3'],2,001,2023-10-04_11h10.36.137,wordfragmentation,2023.1.3,59.95365583408808,
,_l_e_,,,,,0,11,11,11,,,,,88.81030650000321,88.81030650000321,88.81030650000321,0.004844299983233213,,[],[],[],[],[],[],[],2,001,2023-10-04_11h10.36.137,wordfragmentation,2023.1.3,59.95365583408808,
,_o_s_,,,,,0,12,12,9,,,,,98.82425589999184,98.82425589999184,98.82425589999184,0.021620600018650293,mouse,"[-0.011111111111111112, -0.011111111111111112]","[-0.3287037037037037, -0.3194444444444444]","[1, 1]","[0, 0]","[0, 0]","[6.563086500042118, 7.097422100021504]",['text_3'],2,001,2023-10-04_11h10.36.137,wordfragmentation,2023.1.3,59.95365583408808,
,s_m_,,,,,0,13,13,13,,,,,105.93235790001927,105.93235790001927,105.93235790001927,0.004757099959533662,some,"[0.09444444444444444, 0.001851851851851852]","[-0.1361111111111111, -0.30833333333333335]","[1, 1]","[0, 0]","[0, 0]","[2.2100582999992184, 3.2431443000095896]",['text_3'],2,001,2023-10-04_11h10.36.137,wordfragmentation,2023.1.3,59.95365583408808,
,b_e_k,,,,,0,14,14,16,,,,,109.1791279000463,109.1791279000463,109.1791279000463,0.004545900039374828,break,[-0.001851851851851852],[-0.29814814814814816],[1],[0],[0],[4.712954499991611],['text_3'],2,001,2023-10-04_11h10.36.137,wordfragmentation,2023.1.3,59.95365583408808,
,b_o_,,,,,0,15,15,2,,,,,113.89489799999865,113.89489799999865,113.89489799999865,0.004001100023742765,book,[-0.05555555555555555],[-0.30462962962962964],[1],[0],[0],[3.2113312000292353],['text_3'],2,001,2023-10-04_11h10.36.137,wordfragmentation,2023.1.3,59.95365583408808,
,t_g_r,,,,,0,16,16,1,,,,,117.11235559999477,117.11235559999477,117.11235559999477,0.003716500010341406,tiger,[-0.05555555555555555],[-0.30462962962962964],[1],[0],[0],[2.6108949999907054],['text_3'],2,001,2023-10-04_11h10.36.137,wordfragmentation,2023.1.3,59.95365583408808,
,b_a_e,,,,,0,17,17,17,,,,,119.73365480004577,119.73365480004577,119.73365480004577,0.004843099974095821,,[],[],[],[],[],[],[],2,001,2023-10-04_11h10.36.137,wordfragmentation,2023.1.3,59.95365583408808,
,f_t_,,,,,0,18,18,10,,,,,129.7324607000337,129.7324607000337,129.7324607000337,0.006325899972580373,fate,[-0.05555555555555555],[-0.30462962962962964],[1],[0],[0],[3.3450202000094578],['text_3'],2,001,2023-10-04_11h10.36.137,wordfragmentation,2023.1.3,59.95365583408808,
,r_i_,,,,,0,19,19,15,,,,,133.08345299999928,133.08345299999928,133.08345299999928,0.0034285999718122184,rain,[-0.05555555555555555],[-0.30462962962962964],[1],[0],[0],[5.213597499998286],['text_3'],2,001,2023-10-04_11h10.36.137,wordfragmentation,2023.1.3,59.95365583408808,
,n_m_,,,,,0,20,20,20,,,,,138.30710800003726,138.30710800003726,138.30710800003726,0.004295699996873736,name,[-0.05185185185185185],[-0.2935185185185185],[1],[0],[0],[1.827790500014089],['text_3'],2,001,2023-10-04_11h10.36.137,wordfragmentation,2023.1.3,59.95365583408808,
